File: Verification/Pyrolysis/pine_wood_TGA.csv
rate,2.5 KPM,5 KPM,10 KPM,2.5 KPM,5 KPM,10 KPM,5 KPM,5 KPM
O2,0.0 %,0.0 %,0.0 %,20.5 %,20.5 %,20.5 %,8.2 %,4.3 %
Temp,MLR 2,MLR 3,MLR 4,MLR 13,MLR 14,MLR 15,MLR 16,MLR 17
200.0,1.68e-05,1.92e-05,3.77e-05,1.99e-05,2.43e-05,2.8e-05,2.01e-05,8.62e-06
202.0,1.68e-05,1.92e-05,3.77e-05,1.99e-05,2.47688e-05,2.8e-05,2.01e-05,8.62e-06
204.0,1.68e-05,2.042e-05,3.938e-05,2.12954e-05,2.63285e-05,2.8025e-05,1.8784e-05,8.30584e-06
206.0,1.68e-05,2.17826e-05,4.106e-05,2.2846e-05,2.91258e-05,2.8075e-05,1.75094e-05,7.07014e-06
208.0,1.68e-05,2.34357e-05,4.19e-05,2.47873e-05,3.19478e-05,3.12333e-05,2.06988e-05,5.83443e-06
210.0,1.68e-05,2.51185e-05,4.19e-05,2.63779e-05,3.35075e-05,3.75e-05,2.38729e-05,5.76e-06
212.0,1.7825e-05,2.6729e-05,4.19e-05,2.73e-05,3.4e-05,3.75667e-05,2.70074e-05,5.54949e-06
214.0,1.9875e-05,2.68406e-05,4.19e-05,2.73e-05,3.45096e-05,3.92667e-05,2.79209e-05,3.81345e-06
216.0,2.09e-05,2.55757e-05,4.33e-05,2.94862e-05,3.80124e-05,4.26e-05,2.62272e-05,2.89257e-06
218.0,2.09e-05,2.63168e-05,4.47e-05,3.24486e-05,4.12775e-05,4.56e-05,3.36541e-05,2.89807e-06
220.0,2.195e-05,3.15698e-05,4.61e-05,3.59429e-05,4.41566e-05,5.01333e-05,4.08216e-05,4.03159e-06
222.0,2.405e-05,3.64333e-05,4.946e-05,3.85435e-05,4.58722e-05,5.62e-05,4.27707e-05,5.77368e-06
224.0,2.762e-05,4.1151e-05,5.282e-05,4.18772e-05,4.8776e-05,5.92667e-05,4.47198e-05,7.50974e-06
226.0,3.266e-05,4.37046e-05,5.55375e-05,4.58163e-05,5.29735e-05,6.23e-05,4.67525e-05,9.6447e-06
228.0,3.77e-05,4.4e-05,5.76125e-05,5.05015e-05,5.99076e-05,6.53e-05,4.90193e-05,1.25431e-05
230.0,3.91e-05,4.53113e-05,5.96875e-05,5.50537e-05,6.49335e-05,6.83667e-05,5.47993e-05,1.58008e-05
232.0,4.05e-05,4.77084e-05,6.17625e-05,5.93866e-05,6.91373e-05,7.44333e-05,5.9541e-05,1.9699e-05
234.0,4.19e-05,4.98907e-05,6.49e-05,6.20181e-05,7.22567e-05,8.35e-05,6.34362e-05,2.56632e-05
236.0,4.47e-05,5.42415e-05,6.91e-05,6.62009e-05,7.98226e-05,9.25e-05,6.86988e-05,3.18535e-05
238.0,4.778e-05,5.5e-05,7.33e-05,7.17283e-05,8.88467e-05,0.000101667,7.44471e-05,3.66376e-05
240.0,5.114e-05,5.69524e-05,7.792e-05,7.86037e-05,9.83348e-05,0.000111,8.10345e-05,4.1931e-05
242.0,5.45e-05,6.04328e-05,8.296e-05,8.60112e-05,0.000106462,0.000129,8.87636e-05,4.88873e-05
244.0,6.118e-05,6.25941e-05,8.8e-05,9.38454e-05,0.000116267,0.000138,9.60358e-05,5.63709e-05
246.0,6.786e-05,6.85764e-05,9.64444e-05,0.000101738,0.000130173,0.000147,0.000102979,6.42345e-05
248.0,7.33e-05,7.32383e-05,0.000104889,0.000110973,0.000141467,0.000165,0.000113559,6.97492e-05
250.0,7.75e-05,7.85491e-05,0.000113333,0.000121384,0.000152528,0.000174,0.000121672,7.45334e-05
252.0,8.17e-05,8.40407e-05,0.000121778,0.000131795,0.00016359,0.000183,0.000127994,8.29678e-05
254.0,8.74e-05,8.79079e-05,0.000133667,0.00014157,0.000177309,0.000197667,0.00013694,9.18636e-05
256.0,9.46e-05,9.5553e-05,0.000149,0.00015111,0.000193012,0.000214,0.000148163,0.000101358
258.0,0.0001018,0.000100362,0.000164333,0.000161362,0.000212133,0.000232,0.000162918,0.000110473
260.0,0.000109,0.000107571,0.000179714,0.000172607,0.000229683,0.000256,0.000176822,0.000119164
262.0,0.0001175,0.000114228,0.000195143,0.000184652,0.000247065,0.00028,0.00019148,0.000131091
264.0,0.000126,0.000119389,0.000210571,0.000195694,0.000264448,0.000304,0.000206927,0.00014373
266.0,0.00013,0.000124974,0.000226,0.000208209,0.000286137,0.000328,0.000220444,0.000155896
268.0,0.000138,0.000134644,0.000239143,0.000222168,0.000307182,0.000352,0.000233961,0.000169325
270.0,0.0001525,0.000145173,0.000252286,0.000236919,0.000326145,0.000376,0.000247532,0.000185124
272.0,0.000167333,0.000156748,0.000265429,0.000250531,0.000345108,0.000397333,0.000263173,0.000199919
274.0,0.000176,0.000168901,0.000283,0.000263991,0.000365948,0.000423,0.000280268,0.000213823
276.0,0.000189,0.000180508,0.000305,0.000278979,0.000390283,0.000453,0.000299711,0.000229387
278.0,0.000199667,0.000191448,0.000327,0.000296642,0.00041552,0.000483,0.00031709,0.000245377
280.0,0.0002095,0.000204712,0.000356,0.000315699,0.000438852,0.000514667,0.000334468,0.000264493
282.0,0.000219333,0.00021974,0.000378667,0.000334633,0.000459395,0.000548,0.000352131,0.000283609
284.0,0.00023,0.00023284,0.0004085,0.000358723,0.000486283,0.000584,0.000373371,0.000302725
286.0,0.000243,0.000243285,0.000438333,0.000387997,0.000511399,0.00062,0.000394611,0.000319449
288.0,0.00026,0.000259777,0.000461,0.000425872,0.000533522,0.000656,0.000415852,0.000335379
290.0,0.000268,0.000272212,0.000499,0.000477324,0.000557714,0.000694667,0.000437091,0.000353754
292.0,0.0002745,0.000286355,0.000523667,0.000536551,0.000585101,0.000735,0.000460215,0.00037287
294.0,0.000281,0.000303775,0.000557,0.000596524,0.000615126,0.000777,0.000484544,0.000391986
296.0,0.000293,0.000321195,0.000593333,0.000650918,0.000653032,0.000821667,0.000518848,0.000410969
298.0,0.000302,0.000334369,0.000624,0.000695155,0.000696758,0.000865,0.000548704,0.000429796
300.0,0.000312667,0.000350528,0.00067,0.000712511,0.000747326,0.000907,0.000576612,0.000450418
302.0,0.000321,0.000367949,0.000704,0.000696832,0.000823336,0.000955,0.000609629,0.000473009
304.0,0.000327,0.000384906,0.000748,0.00066233,0.000908352,0.00100267,0.000651002,0.000497032
306.0,0.000339,0.000399858,0.000791667,0.000591135,0.000999611,0.00105,0.00070166,0.000521253
308.0,0.000347667,0.000415098,0.000825,0.000512767,0.00112529,0.00110333,0.000755721,0.00054495
310.0,0.0003585,0.000432122,0.000888,0.00043102,0.00124968,0.00115667,0.000824282,0.000569482
312.0,0.000370333,0.000448331,0.000927333,0.000344198,0.00136118,0.00121,0.000905978,0.000595548
314.0,0.000381,0.000464939,0.000968,0.000273323,0.00140385,0.00127,0.0010141,0.000624375
316.0,0.00039,0.000483652,0.00101,0.000218316,0.00140413,0.00134333,0.00112194,0.00065439
318.0,0.000400667,0.000497196,0.00107,0.000185162,0.00136305,0.00143,0.00122803,0.000694698
320.0,0.0004125,0.000508695,0.00110333,0.00016137,0.00123561,0.00155667,0.00130526,0.000738772
322.0,0.0004295,0.00051738,0.001145,0.000143232,0.00108503,0.00171,0.00134315,0.000790902
324.0,0.000447,0.000523532,0.00119,0.000130597,0.000918918,0.00189,0.00134454,0.00085078
326.0,0.000461,0.000529297,0.00122667,0.0001216,0.000746673,0.00211,0.00127118,0.000921866
328.0,0.000486,0.000540178,0.00126,0.000114625,0.000588156,0.00233,0.00115679,0.000994816
330.0,0.0005,0.000552956,0.00128667,0.000109409,0.000450025,0.00255,0.00100787,0.00106906
332.0,0.000524,0.000566016,0.001315,0.000103203,0.000372594,0.00267,0.00080588,0.00112356
334.0,0.000552,0.000581332,0.00134333,9.79815e-05,0.000315267,0.00270333,0.000648946,0.00116541
336.0,0.000574,0.000601295,0.00137,9.51494e-05,0.000274422,0.00265,0.000508814,0.00115673
338.0,0.000608,0.000625263,0.00143,9.3561e-05,0.000250086,0.00245667,0.00039684,0.00112341
340.0,0.000627333,0.000649231,0.00146,9.1484e-05,0.0002310026,0.00221,0.000318164,0.00106181
342.0,0.000639,0.000679314,0.00148667,8.88419e-05,0.000215613,0.00191,0.000262688,0.000967002
344.0,0.000635333,0.000714215,0.001525,8.6687e-05,0.000205184,0.00157667,0.000231801,0.000854063
346.0,0.000624,0.000749975,0.00156667,8.48481e-05,0.000196468,0.0011975,0.000209875,0.00074544
348.0,0.000578,0.000789255,0.0016,8.37461e-05,0.000188787,0.000895333,0.000192545,0.000636768
350.0,0.000528,0.000828534,0.00165,8.28143e-05,0.000182465,0.000716,0.000179516,0.000520353
352.0,0.0004545,0.000860411,0.00171,8.20869e-05,0.000178042,0.000614,0.000173056,0.000418982
354.0,0.000374,0.000890437,0.00178,8.14e-05,0.000174755,0.00053,0.000169628,0.000344743
356.0,0.00031,0.000917551,0.00186,8.14e-05,0.00016954,0.000464,0.000167459,0.000286146
358.0,0.000214,0.000933033,0.00196,8.21743e-05,0.000164639,0.000422,0.000162714,0.000240972
360.0,0.000169333,0.000923644,0.00203333,8.39e-05,0.000160486,0.000387667,0.000158221,0.000212713
362.0,0.000124,0.000893793,0.002145,8.39e-05,0.000160486,0.000361,0.000158223,0.000190428
364.0,8.61e-05,0.00084804,0.00229,8.39e-05,0.000159356,0.000346333,0.000155385,0.000180657
366.0,6.56333e-05,0.000785061,0.0024,8.40147e-05,0.000158055,0.000334333,0.000152484,0.000170886
368.0,5.45e-05,0.000700988,0.00248,8.47771e-05,0.000158055,0.000325,0.000152487,0.000161116
370.0,5.45e-05,0.000598329,0.00259,8.51e-05,0.000158055,0.000322333,0.000153811,0.000151345
372.0,4.89e-05,0.000484988,0.00261,8.53312e-05,0.000158244,0.000318,0.000155365,0.000141574
374.0,4.82e-05,0.0003841,0.00258,8.69195e-05,0.000159982,0.000312,0.000155368,0.000138031
376.0,4.61e-05,0.000297115,0.00247667,8.95572e-05,0.000160486,0.000306,0.000156716,0.000135263
378.0,3.77e-05,0.000217319,0.00235,9.29468e-05,0.000160486,0.000301667,0.000158247,0.000135266
380.0,4.05e-05,0.000167876,0.00205,9.61234e-05,0.000160486,0.000299,0.000158249,0.000137496
382.0,3.98e-05,0.000121038,0.00179,9.89696e-05,0.000161706,0.000293,0.000158252,0.000142238
384.0,3.77e-05,8.89489e-05,0.00152667,0.000101531,0.000163287,0.000288333,0.000158556,0.000142761
386.0,3.77e-05,7.56111e-05,0.00126,0.000103892,0.000164867,0.000285,0.000160489,0.000141026
388.0,3.77e-05,6.90524e-05,0.000892,0.000107361,0.00016535,0.000285,0.000161134,0.00014276
390.0,3.49e-05,6.66802e-05,0.000691333,0.000111747,0.000165621,0.000285,0.000161136,0.000146081
392.0,3.56e-05,6.6e-05,0.000488,0.000116475,0.000167359,0.000285,0.00016114,0.000152403
394.0,3.77e-05,6.37791e-05,0.0003265,0.000121466,0.000170173,0.000288333,0.000161142,0.000155397
396.0,3.77e-05,6.05e-05,0.000247,0.000126608,0.000174023,0.00029,0.000161787,0.0001554
398.0,3.77e-05,6.04008e-05,0.000205,0.000131337,0.000180345,0.00029,0.000163527,0.000155403
400.0,3.35e-05,5.81873e-05,0.000183,0.000135848,0.000184733,0.000293333,0.000164023,0.000155406
402.0,3.35e-05,5.77e-05,0.0001655,0.000140707,0.000188564,0.000299333,0.00016471,0.000155409
404.0,3.49e-05,5.77e-05,0.000156333,0.000149381,0.000193305,0.000308,0.00016645,0.000155785
406.0,3.77e-05,5.71653e-05,0.000151,0.000157456,0.000199218,0.000311333,0.000172622,0.000157368
408.0,3.77e-05,5.50308e-05,0.000142,0.000164487,0.000205314,0.000313,0.000179372,0.00015829
410.0,3.35e-05,5.25069e-05,0.000142,0.000169303,0.000210529,0.000313,0.000183236,0.000158292
412.0,3.63e-05,5.22e-05,0.000142,0.000174353,0.000215362,0.000321667,0.000187101,0.000159503
414.0,3.77e-05,5.22e-05,0.0001412,0.000179668,0.000221361,0.000330667,0.000192034,0.000161086
416.0,3.63e-05,5.14544e-05,0.0001396,0.000185738,0.000230843,0.00034,0.000199759,0.000162668
418.0,3.35e-05,4.95e-05,0.000138,0.000186804,0.000242276,0.000345587,0.000205961,0.000164296
420.0,3.35e-05,4.95e-05,0.0001348,0.000185931,0.000254081,0.000352474,0.000210594,0.000166229
422.0,3.63e-05,4.71571e-05,0.0001316,0.000182451,0.000265143,0.00036142,0.000212528,0.00016878
424.0,3.56e-05,4.67e-05,0.0001292,0.000177938,0.000274958,0.000370366,0.000217601,0.000171679
426.0,3.35e-05,4.67e-05,0.0001276,0.000172038,0.000285111,0.000380366,0.000223772,0.000175211
428.0,3.35e-05,4.63519e-05,0.000126,0.00016256,0.000297279,0.000392273,0.000230726,0.000179488
430.0,2.93e-05,4.44545e-05,0.0001244,0.000147144,0.000308505,0.000402441,0.000237387,0.000185809
432.0,2.65e-05,4.20763e-05,0.0001228,0.00012948,0.000317591,0.000411865,0.000245002,0.00019213
434.0,2.51e-05,4.24865e-05,0.000122,0.000112899,0.000322332,0.000420811,0.000254658,0.000198452
436.0,2.51e-05,4.2852e-05,0.000122,9.49615e-05,0.000329382,0.000435357,0.000264314,0.000204773
438.0,2.51e-05,3.85e-05,0.000122,7.7594e-05,0.000331639,0.000450223,0.000275413,0.000211095
440.0,2.51e-05,3.85329e-05,0.000122,6.1695e-05,0.000328742,0.00046509,0.00028893,0.000217866
442.0,2.51e-05,4.0431e-05,0.000122,4.76659e-05,0.00032034,0.000485354,0.000299711,0.000224782
444.0,2.3e-05,4.12e-05,0.00012,3.52075e-05,0.000308039,0.000507302,0.000310409,0.000231103
446.0,2.23e-05,4.12e-05,0.000118,2.47945e-05,0.000289076,0.000531036,0.000321995,0.000237158
448.0,2.51e-05,,,1.57773e-05,0.000260763,0.000552179,0.000332144,0.000242374
450.0,,,,9.23071e-06,0.000228224,0.000574023,0.000341304,0.00024793
452.0,,,,6.32463e-06,0.000193459,0.000597757,0.00034903,0.000253725
454.0,,,,4.59929e-06,0.000160212,0.000623481,0.000350816,0.000261268
456.0,,,,3.61786e-06,0.000130641,0.000647121,0.00034694,0.000269144
458.0,,,,2.80942e-06,0.000106018,0.000667901,0.000338255,0.000274939
460.0,,,,2.80165e-06,8.29069e-05,0.000680299,0.000320954,0.00028042
462.0,,,,3.36404e-06,6.21153e-05,0.000687127,0.000298342,0.000285162
464.0,,,,4.14079e-06,4.47442e-05,0.00068718,0.000272281,0.000292627
466.0,,,,5.7164e-06,3.48276e-05,0.000665489,0.000237539,0.000303055
468.0,,,,4.93968e-06,2.66352e-05,0.000630915,0.000199587,0.000307484
470.0,,,,1.77577e-06,2.03314e-05,0.000580289,0.000159046,0.000310599
472.0,,,,1.52284e-06,1.44665e-05,0.000513533,0.000126632,0.000307126
474.0,,,,2.01583e-06,9.7415e-06,0.000439604,9.71197e-05,0.00030097
476.0,,,,,5.70531e-06,0.00035771,7.01153e-05,0.000289916
478.0,,,,,,0.000286574,5.14231e-05,0.000275478
480.0,,,,,,0.000221017,3.69646e-05,0.000258105
482.0,,,,,,0.000164396,2.73536e-05,0.000237945
484.0,,,,,,0.000123022,2.01063e-05,0.000217313
486.0,,,,,,9.16321e-05,1.42799e-05,0.000195201
488.0,,,,,,6.79101e-05,1.20872e-05,0.000172546
490.0,,,,,,6.49073e-05,1.19e-05,0.000148224
492.0,,,,,,5.87105e-05,1.13346e-05,0.000127081
494.0,,,,,,5.09432e-05,9.17213e-06,0.000108128
496.0,,,,,,5.98499e-05,7.22893e-06,8.90331e-05
498.0,,,,,,6.35e-05,,7.0492e-05
500.0,,,,,,6.35e-05,,5.63045e-05
502.0,,,,,,6.35e-05,,4.40095e-05
504.0,,,,,,6.35e-05,,3.60909e-05
506.0,,,,,,6.35e-05,,2.94855e-05
508.0,,,,,,6.35e-05,,2.42834e-05
510.0,,,,,,6.35e-05,,1.94739e-05
512.0,,,,,,6.35e-05,,1.47595e-05
514.0,,,,,,6.35e-05,,1.12935e-05
516.0,,,,,,6.35e-05,,8.44982e-06
518.0,,,,,,6.35e-05,,6.71983e-06
520.0,,,,,,6.35e-05,,5.18965e-06
522.0,,,,,,6.35e-05,,3.74295e-06
524.0,,,,,,6.35e-05,,3.34e-06
526.0,,,,,,6.35e-05,,3.34041e-06
528.0,,,,,,6.35e-05,,3.34646e-06
530.0,,,,,,6.35e-05,,
532.0,,,,,,6.35e-05,,
534.0,,,,,,6.35e-05,,
536.0,,,,,,6.35e-05,,
538.0,,,,,,6.35e-05,,
540.0,,,,,,6.35e-05,,
542.0,,,,,,6.35e-05,,
544.0,,,,,,6.35e-05,,
546.0,,,,,,6.35e-05,,
548.0,,,,,,6.35e-05,,